Frequency (Hz)	Level (dB)
15.625000	-33.691017
31.250000	-29.289448
46.875000	-30.669695
62.500000	-33.477238
78.125000	-34.030376
93.750000	-33.509468
109.375000	-32.649719
125.000000	-32.120056
140.625000	-31.637556
156.250000	-31.290911
171.875000	-30.920689
187.500000	-30.617094
203.125000	-29.955685
218.750000	-29.665810
234.375000	-29.601082
250.000000	-29.323090
265.625000	-29.031412
281.250000	-29.668398
296.875000	-30.118092
312.500000	-30.128439
328.125000	-30.456860
343.750000	-30.883156
359.375000	-31.083992
375.000000	-31.186995
390.625000	-31.659491
406.250000	-31.959784
421.875000	-32.183350
437.500000	-32.276451
453.125000	-32.576962
468.750000	-32.761345
484.375000	-33.144783
500.000000	-33.334858
515.625000	-32.967819
531.250000	-32.445137
546.875000	-32.878136
562.500000	-33.909267
578.125000	-34.441654
593.750000	-34.591728
609.375000	-34.857143
625.000000	-35.262352
640.625000	-35.665962
656.250000	-35.603390
671.875000	-35.934586
687.500000	-36.291393
703.125000	-36.447090
718.750000	-36.713577
734.375000	-36.936096
750.000000	-37.110359
765.625000	-37.048958
781.250000	-36.656429
796.875000	-36.480072
812.500000	-37.256149
828.125000	-38.189095
843.750000	-38.860962
859.375000	-39.574741
875.000000	-39.717133
890.625000	-39.707478
906.250000	-40.455391
921.875000	-40.985672
937.500000	-41.156460
953.125000	-41.167217
968.750000	-41.585251
984.375000	-42.056572
1000.000000	-42.387203
1015.625000	-42.493008
1031.250000	-42.036434
1046.875000	-40.500992
1062.500000	-39.290634
1078.125000	-39.989635
1093.750000	-41.764275
1109.375000	-43.319683
1125.000000	-43.905495
1140.625000	-44.549553
1156.250000	-45.394054
1171.875000	-46.109699
1187.500000	-46.343231
1203.125000	-46.810635
1218.750000	-47.403133
1234.375000	-47.542995
1250.000000	-47.577240
1265.625000	-47.637821
1281.250000	-47.347107
1296.875000	-46.575817
1312.500000	-44.446049
1328.125000	-43.294304
1343.750000	-44.599163
1359.375000	-46.950020
1375.000000	-48.598637
1390.625000	-49.384228
1406.250000	-49.855507
1421.875000	-50.304356
1437.500000	-50.794910
1453.125000	-51.239845
1468.750000	-51.633831
1484.375000	-51.658321
1500.000000	-51.583755
1515.625000	-51.490471
1531.250000	-51.204937
1546.875000	-49.881878
1562.500000	-47.747070
1578.125000	-44.731628
1593.750000	-42.739025
1609.375000	-44.194206
1625.000000	-47.449226
1640.625000	-49.841560
1656.250000	-51.418545
1671.875000	-52.660107
1687.500000	-53.229778
1703.125000	-53.805004
1718.750000	-53.968533
1734.375000	-53.990993
1750.000000	-54.210423
1765.625000	-53.853786
1781.250000	-52.861938
1796.875000	-51.380398
1812.500000	-49.316383
1828.125000	-46.401257
1843.750000	-42.809616
1859.375000	-40.860840
1875.000000	-42.270454
1890.625000	-45.521648
1906.250000	-48.289501
1921.875000	-50.435787
1937.500000	-51.959572
1953.125000	-52.887222
1968.750000	-53.335201
1984.375000	-53.863621
2000.000000	-54.001682
2015.625000	-53.588783
2031.250000	-52.964302
2046.875000	-51.860840
2062.500000	-50.313450
2078.125000	-48.375134
2093.750000	-45.113800
2109.375000	-41.502182
2125.000000	-39.596661
2140.625000	-41.203747
2156.250000	-44.183041
2171.875000	-46.602825
2187.500000	-48.413837
2203.125000	-49.713413
2218.750000	-50.541809
2234.375000	-51.160255
2250.000000	-51.714359
2265.625000	-51.911343
2281.250000	-51.864769
2296.875000	-50.990917
2312.500000	-49.926968
2328.125000	-48.268711
2343.750000	-46.254482
2359.375000	-43.475418
2375.000000	-40.113094
2390.625000	-38.148586
2406.250000	-39.270340
2421.875000	-42.112957
2437.500000	-45.022354
2453.125000	-46.863789
2468.750000	-48.178303
2484.375000	-49.161732
2500.000000	-49.828693
2515.625000	-50.200153
2531.250000	-50.073296
2546.875000	-49.613670
2562.500000	-48.960419
2578.125000	-47.803993
2593.750000	-46.290321
2609.375000	-44.232204
2625.000000	-41.286304
2640.625000	-37.850506
2656.250000	-36.153522
2671.875000	-37.474625
2687.500000	-40.512951
2703.125000	-43.117790
2718.750000	-44.894543
2734.375000	-46.289047
2750.000000	-46.973827
2765.625000	-47.322975
2781.250000	-48.044300
2796.875000	-47.963383
2812.500000	-47.234585
2828.125000	-46.205482
2843.750000	-45.254742
2859.375000	-43.778294
2875.000000	-41.417946
2890.625000	-38.632721
2906.250000	-35.907352
2921.875000	-34.563900
2937.500000	-35.453262
2953.125000	-37.841000
2968.750000	-40.401730
2984.375000	-42.534389
3000.000000	-43.702087
3015.625000	-44.596619
3031.250000	-45.224850
3046.875000	-45.392254
3062.500000	-45.307144
3078.125000	-44.869080
3093.750000	-43.965267
3109.375000	-42.665985
3125.000000	-41.298050
3140.625000	-39.400856
3156.250000	-36.779533
3171.875000	-34.022087
3187.500000	-32.691124
3203.125000	-33.704823
3218.750000	-36.087189
3234.375000	-38.459480
3250.000000	-39.942703
3265.625000	-41.333221
3281.250000	-42.244049
3296.875000	-42.870026
3312.500000	-43.113052
3328.125000	-43.095024
3343.750000	-42.618874
3359.375000	-41.898266
3375.000000	-40.831196
3390.625000	-39.619644
3406.250000	-37.649944
3421.875000	-35.359428
3437.500000	-33.115063
3453.125000	-32.054173
3468.750000	-32.470451
3484.375000	-34.433636
3500.000000	-36.678497
3515.625000	-38.604458
3531.250000	-39.762939
3546.875000	-40.708935
3562.500000	-41.348942
3578.125000	-41.512054
3593.750000	-41.545074
3609.375000	-41.180019
3625.000000	-40.664722
3640.625000	-39.867561
3656.250000	-38.973118
3671.875000	-37.389774
3687.500000	-35.092350
3703.125000	-32.944599
3718.750000	-31.737789
3734.375000	-32.170609
3750.000000	-34.259594
3765.625000	-36.434715
3781.250000	-37.955826
3796.875000	-39.304779
3812.500000	-40.446636
3828.125000	-41.132915
3843.750000	-41.344803
3859.375000	-41.593338
3875.000000	-41.515125
3890.625000	-40.951271
3906.250000	-40.329647
3921.875000	-38.889084
3937.500000	-37.148876
3953.125000	-35.558601
3968.750000	-33.548447
3984.375000	-32.044022
4000.000000	-32.236115
4015.625000	-34.098457
4031.250000	-36.241600
4046.875000	-38.253910
4062.500000	-39.678810
4078.125000	-40.738964
4093.750000	-41.733536
4109.375000	-42.027210
4125.000000	-42.233761
4140.625000	-42.007370
4156.250000	-41.474884
4171.875000	-40.745213
4187.500000	-39.762688
4203.125000	-38.160095
4218.750000	-36.104099
4234.375000	-33.921501
4250.000000	-32.435993
4265.625000	-32.742764
4281.250000	-34.692047
4296.875000	-36.683441
4312.500000	-38.695393
4328.125000	-39.967861
4343.750000	-41.207031
4359.375000	-41.906487
4375.000000	-42.292191
4390.625000	-42.323723
4406.250000	-42.209217
4421.875000	-41.640373
4437.500000	-40.977501
4453.125000	-39.921738
4468.750000	-38.471493
4484.375000	-36.574017
4500.000000	-34.335331
4515.625000	-33.331043
4531.250000	-33.585957
4546.875000	-35.082855
4562.500000	-37.201939
4578.125000	-39.141640
4593.750000	-40.434616
4609.375000	-41.505585
4625.000000	-42.094013
4640.625000	-42.364353
4656.250000	-42.423161
4671.875000	-42.399456
4687.500000	-41.864540
4703.125000	-40.988026
4718.750000	-39.845222
4734.375000	-38.302368
4750.000000	-36.438560
4765.625000	-34.524578
4781.250000	-33.472446
4796.875000	-33.850224
4812.500000	-35.231945
4828.125000	-37.199078
4843.750000	-38.840584
4859.375000	-39.936913
4875.000000	-40.994137
4890.625000	-41.598740
4906.250000	-41.992619
4921.875000	-41.985611
4937.500000	-41.744225
4953.125000	-41.007893
4968.750000	-40.323498
4984.375000	-39.083996
5000.000000	-37.636257
5015.625000	-35.980194
5031.250000	-34.197811
5046.875000	-33.196480
5062.500000	-33.791367
5078.125000	-35.354885
5093.750000	-36.936337
5109.375000	-38.516300
5125.000000	-39.778561
5140.625000	-40.448841
5156.250000	-40.669998
5171.875000	-40.898724
5187.500000	-40.860428
5203.125000	-40.516190
5218.750000	-39.891289
5234.375000	-39.056606
5250.000000	-38.138206
5265.625000	-36.596214
5281.250000	-34.774044
5296.875000	-33.458332
5312.500000	-33.042126
5328.125000	-33.563122
5343.750000	-34.892673
5359.375000	-36.103325
5375.000000	-37.212646
5390.625000	-38.259811
5406.250000	-38.867149
5421.875000	-39.303009
5437.500000	-39.360130
5453.125000	-39.276733
5468.750000	-38.776810
5484.375000	-38.185604
5500.000000	-37.342972
5515.625000	-36.197205
5531.250000	-35.031158
5546.875000	-34.054321
5562.500000	-33.290844
5578.125000	-33.160793
5593.750000	-33.373501
5609.375000	-34.150124
5625.000000	-35.084621
5640.625000	-35.886829
5656.250000	-36.469604
5671.875000	-37.185081
5687.500000	-37.302937
5703.125000	-37.324860
5718.750000	-37.116600
5734.375000	-36.884678
5750.000000	-36.357948
5765.625000	-36.250648
5781.250000	-35.573593
5796.875000	-34.860901
5812.500000	-34.523838
5828.125000	-33.990768
5843.750000	-33.670391
5859.375000	-33.767693
5875.000000	-34.007664
5890.625000	-34.349407
5906.250000	-34.791893
5921.875000	-35.162304
5937.500000	-35.438168
5953.125000	-35.778687
5968.750000	-36.390236
5984.375000	-36.968006
6000.000000	-37.248569
6015.625000	-37.292786
6031.250000	-37.286102
6046.875000	-36.977688
6062.500000	-36.673641
6078.125000	-36.519073
6093.750000	-36.159130
6109.375000	-35.615673
6125.000000	-34.968647
6140.625000	-34.754299
6156.250000	-34.712543
6171.875000	-34.866760
6187.500000	-35.578354
6203.125000	-36.626713
6218.750000	-37.966045
6234.375000	-38.834332
6250.000000	-39.638767
6265.625000	-40.219700
6281.250000	-40.682510
6296.875000	-41.018482
6312.500000	-41.394852
6328.125000	-41.255280
6343.750000	-40.530323
6359.375000	-40.214409
6375.000000	-39.350826
6390.625000	-38.300270
6406.250000	-37.496807
6421.875000	-37.335129
6437.500000	-37.823196
6453.125000	-39.336987
6468.750000	-40.638966
6484.375000	-42.024860
6500.000000	-43.397133
6515.625000	-44.611408
6531.250000	-45.467529
6546.875000	-46.232376
6562.500000	-46.695484
6578.125000	-46.622292
6593.750000	-46.305096
6609.375000	-45.820976
6625.000000	-44.996323
6640.625000	-43.875404
6656.250000	-42.854130
6671.875000	-42.295273
6687.500000	-41.965584
6703.125000	-42.948048
6718.750000	-44.956799
6734.375000	-46.971577
6750.000000	-48.622284
6765.625000	-50.112202
6781.250000	-51.426109
6796.875000	-52.042587
6812.500000	-52.630493
6828.125000	-53.157814
6843.750000	-53.483200
6859.375000	-53.228489
6875.000000	-52.717197
6890.625000	-51.839947
6906.250000	-50.598415
6921.875000	-49.500839
6937.500000	-48.763840
6953.125000	-49.037323
6968.750000	-50.484955
6984.375000	-52.602509
7000.000000	-54.828823
7015.625000	-56.918549
7031.250000	-58.622253
7046.875000	-59.902500
7062.500000	-60.971451
7078.125000	-61.919178
7093.750000	-62.253727
7109.375000	-62.648308
7125.000000	-62.543179
7140.625000	-62.015736
7156.250000	-61.058193
7171.875000	-59.818451
7187.500000	-58.419415
7203.125000	-57.721241
7218.750000	-58.088043
7234.375000	-59.675259
7250.000000	-61.969250
7265.625000	-64.208717
7281.250000	-66.443810
7296.875000	-68.256424
7312.500000	-69.608665
7328.125000	-70.922234
7343.750000	-71.750748
7359.375000	-72.204994
7375.000000	-72.134018
7390.625000	-71.793472
7406.250000	-70.800079
7421.875000	-69.179955
7437.500000	-66.871315
7453.125000	-64.677849
7468.750000	-63.296688
7484.375000	-63.130108
7500.000000	-64.504593
7515.625000	-66.952278
7531.250000	-69.599426
7546.875000	-71.899109
7562.500000	-74.476639
7578.125000	-76.587746
7593.750000	-78.594872
7609.375000	-80.364639
7625.000000	-81.738495
7640.625000	-82.077644
7656.250000	-81.879265
7671.875000	-81.280930
7687.500000	-80.610550
7703.125000	-80.119026
7718.750000	-79.953209
7734.375000	-80.636131
7750.000000	-82.931908
7765.625000	-87.227440
7781.250000	-92.540848
7796.875000	-97.982887
7812.500000	-103.925323
7828.125000	-109.826950
7843.750000	-115.995468
7859.375000	-122.527069
7875.000000	-128.921112
7890.625000	-135.741501
7906.250000	-141.915466
7921.875000	-146.972672
7937.500000	-149.277740
7953.125000	-150.416351
7968.750000	-150.825882
7984.375000	-151.097519
